<Bundle xmlns="http://hl7.org/fhir">
   <type value="collection" />
   <entry>
      <fullUrl value="urn:uuid:4953a338-2952-0726-0150-fcbd41af02a3" />
      <resource>
         <MessageHeader xmlns="http://hl7.org/fhir">
            <extension url="urn:ehealth_connector:FhirExtension:useAsRepositoryDestination">
               <valueString value="dummy" />
            </extension>
            <timestamp value="2015-10-30T07:00:23.260+01:00" />
            <event>
               <system value="urn:oid:dummy" />
               <code value="dummy" />
            </event>
            <source>
               <name value="2.16.756.5.30.1.139.1.1.3" />
               <software value="1.3.6.1.4.1.21367.2010.1.2.666" />
               <endpoint value="http://localhost" />
            </source>
            <destination>
               <name value="1.3.6.1.4.1.21367.2005.13.20.3000" />
               <endpoint value="http://ihexds.nist.gov/tf6/services/xdsrepositoryb" />
            </destination>
         </MessageHeader>
      </resource>
   </entry>
   <entry>
      <fullUrl value="urn:uuid:4953a3d8-2952-0726-c58c-fcbd41af02a3" />
      <resource>
         <DocumentManifest xmlns="http://hl7.org/fhir">
            <contained>
               <Patient xmlns="http://hl7.org/fhir">
                  <id value="1" />
                  <identifier>
                     <system value="urn:oid:2.16.756.5.30.1.100.3.1.1" />
                     <value value="8.79462.08.1" />
                  </identifier>
                  <identifier>
                     <system value="urn:oid:2.16.756.5.31" />
                     <value value="123.73.423.123" />
                  </identifier>
                  <identifier>
                     <system value="urn:oid:2.16.756.5.30.1.139.1.1.3" />
                     <value value="eHC123" />
                  </identifier>
                  <identifier>
                     <system value="urn:oid:1.3.6.1.4.1.21367.2005.13.20.3000" />
                     <value value="b8a9a9ad17b5429" />
                  </identifier>
                  <name>
                     <family value="Muster" />
                     <given value="Max" />
                  </name>
                  <telecom>
                     <system value="phone" />
                     <value value="tel:+41.32.685.12.34" />
                     <use value="home" />
                  </telecom>
                  <telecom>
                     <system value="phone" />
                     <value value="tel:+41.32.123.77.88" />
                     <use value="work" />
                  </telecom>
                  <gender value="male" />
                  <birthDate value="1948-06-11" />
                  <address>
                     <use value="home" />
                     <line value="Leidensweg 10" />
                     <city value="Specimendorf" />
                     <postalCode value="9876" />
                     <country value="CHE" />
                  </address>
               </Patient>
            </contained>
            <contained>
               <Organization xmlns="http://hl7.org/fhir">
                  <id value="2" />
                  <name value="Sanofi Pasteur MSD AG" />
               </Organization>
            </contained>
            <contained>
               <Practitioner xmlns="http://hl7.org/fhir">
                  <id value="3" />
                  <identifier>
                     <system value="urn:oid:1.3.88" />
                     <value value="7607777777777" />
                  </identifier>
                  <name>
                     <family value="Bereit" />
                     <given value="Allzeit" />
                     <prefix value="Dr. med." />
                     <suffix value="Facharzt für Allgemeine Medizin" />
                  </name>
               </Practitioner>
            </contained>
            <extension url="urn:ehealth_connector:FhirExtension:useAsComment">
               <valueString value="This is sample pdf" />
            </extension>
            <masterIdentifier>
               <system value="urn:oid:2.16.756.5.30.1.139.1.1.3" />
               <value value="urn:uuid:4953a298-2952-0726-5d45-fcbd41af02a3" />
            </masterIdentifier>
            <subject>
               <reference value="#1" />
            </subject>
            <recipient>
               <reference value="#2" />
            </recipient>
            <type>
               <coding>
                  <system value="urn:oid:2.16.840.1.113883.6.1" />
                  <code value="34817-7" />
               </coding>
               <text value="Otorhinolaryngology Evaluation and Management Note" />
            </type>
            <author>
               <reference value="#3" />
            </author>
            <source value="urn:oid:1.3.6.1.4.1.21367.77777777" />
            <status value="current" />
            <description value="Demo Submission Set NIST Pdf" />
            <content>
               <pReference>
                  <reference value="2.16.756.5.30.1.139.1.1.3.00000000" />
               </pReference>
            </content>
         </DocumentManifest>
      </resource>
   </entry>
   <entry>
      <fullUrl value="urn:uuid:4953a46e-2952-0726-b67b-fcbd41af02a3" />
      <resource>
         <DocumentReference xmlns="http://hl7.org/fhir">
            <contained>
               <Practitioner xmlns="http://hl7.org/fhir">
                  <id value="1" />
                  <identifier>
                     <system value="urn:oid:1.3.88" />
                     <value value="7607777777777" />
                  </identifier>
                  <name>
                     <family value="Bereit" />
                     <given value="Allzeit" />
                     <prefix value="Dr. med." />
                     <suffix value="Facharzt für Allgemeine Medizin" />
                  </name>
               </Practitioner>
            </contained>
            <contained>
               <Patient xmlns="http://hl7.org/fhir">
                  <id value="2" />
                  <identifier>
                     <system value="urn:oid:2.16.756.5.30.1.100.3.1.1" />
                     <value value="8.79462.08.1" />
                  </identifier>
                  <identifier>
                     <system value="urn:oid:2.16.756.5.31" />
                     <value value="123.73.423.123" />
                  </identifier>
                  <identifier>
                     <system value="urn:oid:2.16.756.5.30.1.139.1.1.3" />
                     <value value="eHC123" />
                  </identifier>
                  <identifier>
                     <system value="urn:oid:1.3.6.1.4.1.21367.2005.13.20.3000" />
                     <value value="b8a9a9ad17b5429" />
                  </identifier>
                  <name>
                     <family value="Muster" />
                     <given value="Max" />
                  </name>
                  <telecom>
                     <system value="phone" />
                     <value value="tel:+41.32.685.12.34" />
                     <use value="home" />
                  </telecom>
                  <telecom>
                     <system value="phone" />
                     <value value="tel:+41.32.123.77.88" />
                     <use value="work" />
                  </telecom>
                  <gender value="male" />
                  <birthDate value="1948-06-11" />
                  <address>
                     <use value="home" />
                     <line value="Leidensweg 10" />
                     <city value="Specimendorf" />
                     <postalCode value="9876" />
                     <country value="CHE" />
                  </address>
               </Patient>
            </contained>
            <extension url="urn:ehealth_connector:FhirExtension:useAsMetadataLanguage">
               <valueString value="en-US" />
            </extension>
            <extension url="urn:ehealth_connector:FhirExtension:useAsComment">
               <valueString value="This is sample pdf" />
            </extension>
            <extension url="urn:ehealth_connector:FhirExtension:useAsPracticeSettingCode">
               <valueCoding>
                  <system value="2.16.840.1.113883.6.96" />
                  <code value="394802001" />
                  <display value="General Medicine" />
               </valueCoding>
            </extension>
            <masterIdentifier>
               <system value="urn:oid:2.16.756.5.30.1.139.1.1.3" />
               <value value="2.16.756.5.30.1.139.1.1.3.00000000" />
            </masterIdentifier>
            <type>
               <coding>
                  <system value="urn:oid:2.16.840.1.113883.6.1" />
                  <code value="34133-9" />
               </coding>
               <text value="Summarization of Episode Note" />
            </type>
            <class>
               <coding>
                  <system value="urn:oid:1.3.6.1.4.1.21367.100.1" />
                  <code value="DEMO-Consult" />
               </coding>
               <text value="Consultation" />
            </class>
            <author>
               <reference value="#1" />
            </author>
            <authenticator>
               <reference value="#1" />
            </authenticator>
            <created value="2013-04-23" />
            <indexed value="2013-04-23T00:00:00.000+02:00" />
            <status value="current" />
            <description value="Patientenverfügung" />
            <securityLabel>
               <coding>
                  <system value="urn:oid:2.16.840.1.113883.5.25" />
                  <code value="N" />
               </coding>
               <text value="Normal" />
            </securityLabel>
            <content>
               <attachment>
                  <language value="de-CH" />
                  <url value="demoDocSource/patientconsent.pdf" />
               </attachment>
               <format>
                  <extension url="urn:ehealth_connector:FhirExtension:useAsMimeType">
                     <valueString value="dummy" />
                  </extension>
                  <system value="urn:oid:dummy" />
                  <code value="application/pdf" />
               </format>
               <format>
                  <extension url="urn:ehealth_connector:FhirExtension:useAsDocumentDescriptor">
                     <valueString value="dummy" />
                  </extension>
                  <system value="urn:oid:dummy" />
                  <code value="PDF!application/pdf" />
               </format>
               <format>
                  <extension url="urn:ehealth_connector:FhirExtension:useAsFormatCode">
                     <valueString value="dummy" />
                  </extension>
                  <system value="urn:oid:1.3.6.1.4.1.19376.1.2.3" />
                  <code value="urn:ihe:iti:xds-sd:pdf:2008" />
                  <display value="Scanned Document" />
               </format>
            </content>
            <context>
               <period>
                  <start value="2013-04-23" />
               </period>
               <facilityType>
                  <coding>
                     <system value="urn:oid:2.16.840.1.113883.5.11" />
                     <code value="AMB" />
                  </coding>
                  <text value="Ambulance" />
               </facilityType>
               <sourcePatientInfo>
                  <reference value="#2" />
               </sourcePatientInfo>
            </context>
         </DocumentReference>
      </resource>
   </entry>
</Bundle>