<Bundle xmlns="http://hl7.org/fhir">
   <type value="collection" />
   <entry>
      <fullUrl value="urn:uuid:4953a5a4-2952-0726-aa8a-fcbd41af02a3" />
      <resource>
         <MessageHeader xmlns="http://hl7.org/fhir">
            <extension url="urn:ehealth_connector:FhirExtension:useAsRepositoryDestination">
               <valueString value="dummy" />
            </extension>
            <timestamp value="2015-10-30T07:00:23.307+01:00" />
            <event>
               <system value="urn:oid:dummy" />
               <code value="dummy" />
            </event>
            <source>
               <name value="2.16.756.5.30.1.139.1.1.3" />
               <software value="1.3.6.1.4.1.21367.2010.1.2.666" />
               <endpoint value="http://localhost" />
            </source>
            <destination>
               <name value="2.16.756.5.37" />
               <endpoint value="http://ahdis-ihetest.cloudapp.net:8100//xdstools2/sim/305cd4eb-1724-45ae-b489-d10678342c97/rep/prb" />
            </destination>
         </MessageHeader>
      </resource>
   </entry>
   <entry>
      <fullUrl value="urn:uuid:4953a644-2952-0726-cc6c-fcbd41af02a3" />
      <resource>
         <DocumentManifest xmlns="http://hl7.org/fhir">
            <contained>
               <Patient xmlns="http://hl7.org/fhir">
                  <id value="1" />
                  <identifier>
                     <system value="urn:oid:2.16.756.5.30.999999999999" />
                     <value value="898989" />
                  </identifier>
                  <identifier>
                     <system value="urn:oid:2.16.756.5.30.1.139.1.1.3" />
                     <value value="eHC123" />
                  </identifier>
                  <identifier>
                     <system value="urn:oid:1.3.6.1.4.1.21367.2005.13.20.3000" />
                     <value value="b8a9a9ad17b5429" />
                  </identifier>
                  <identifier>
                     <system value="urn:oid:2.16.756.5.30.1.139.1.1.3" />
                     <value value="eHC123" />
                  </identifier>
                  <identifier>
                     <system value="urn:oid:2.16.756.5.37" />
                     <value value="123.73.423.124" />
                  </identifier>
                  <name>
                     <family value="Tigrinja" />
                     <given value="Sesuna" />
                  </name>
                  <telecom>
                     <system value="phone" />
                     <value value="tel:+41.32.685.12.34" />
                     <use value="home" />
                  </telecom>
                  <telecom>
                     <system value="phone" />
                     <value value="tel:+41.32.123.77.88" />
                     <use value="work" />
                  </telecom>
                  <gender value="female" />
                  <birthDate value="2000-04-04" />
                  <address>
                     <use value="home" />
                     <line value="Leidensweg 10" />
                     <city value="Specimendorf" />
                     <postalCode value="9876" />
                     <country value="CHE" />
                  </address>
                  <managingOrganization>
                     <reference value="#2" />
                  </managingOrganization>
               </Patient>
            </contained>
            <contained>
               <Organization xmlns="http://hl7.org/fhir">
                  <id value="2" />
                  <identifier>
                     <system value="urn:oid:1.3.88" />
                     <value value="7609999999999" />
                  </identifier>
                  <name value="Gruppenpraxis CH" />
                  <telecom>
                     <system value="phone" />
                     <value value="tel:+41.32.234.55.66" />
                     <use value="work" />
                  </telecom>
                  <telecom>
                     <system value="fax" />
                     <value value="fax:+41.32.234.66.77" />
                     <use value="work" />
                  </telecom>
                  <telecom>
                     <system value="email" />
                     <value value="mailto:bereit@gruppenpraxis.ch" />
                     <use value="work" />
                  </telecom>
                  <telecom>
                     <system value="other" />
                     <value value="http://www.gruppenpraxis.ch" />
                     <use value="work" />
                  </telecom>
                  <address>
                     <use value="work" />
                     <line value="Doktorgasse 2" />
                     <city value="Musterhausen" />
                     <postalCode value="8888" />
                     <country value="CHE" />
                  </address>
               </Organization>
            </contained>
            <contained>
               <Organization xmlns="http://hl7.org/fhir">
                  <id value="3" />
                  <identifier>
                     <system value="urn:oid:1.3.88" />
                     <value value="7608888888888" />
                  </identifier>
                  <name value="CDSS AG" />
                  <telecom>
                     <system value="phone" />
                     <value value="tel:+41.99.999.99.99" />
                     <use value="work" />
                  </telecom>
                  <telecom>
                     <system value="email" />
                     <value value="mailto:info@cdss.ch" />
                     <use value="work" />
                  </telecom>
                  <telecom>
                     <system value="other" />
                     <value value="http://www.cdss.ch" />
                     <use value="work" />
                  </telecom>
                  <address>
                     <use value="work" />
                     <line value="Rathaus" />
                     <city value="Musterhausen" />
                     <postalCode value="8888" />
                     <country value="CHE" />
                  </address>
               </Organization>
            </contained>
            <contained>
               <Practitioner xmlns="http://hl7.org/fhir">
                  <id value="4" />
                  <identifier>
                     <system value="urn:oid:1.3.88" />
                     <value value="7607777777777" />
                  </identifier>
                  <name>
                     <family value="Bereit" />
                     <given value="Allzeit" />
                     <prefix value="Dr. med." />
                     <suffix value="Facharzt f체r Allgemeine Medizin" />
                  </name>
               </Practitioner>
            </contained>
            <extension url="urn:ehealth_connector:FhirExtension:useAsComment">
               <valueString value="This is a comment" />
            </extension>
            <masterIdentifier>
               <system value="urn:oid:2.16.756.5.30.1.139.1.1.3" />
               <value value="urn:uuid:4953a50e-2952-0726-e59e-fcbd41af02a3" />
            </masterIdentifier>
            <subject>
               <reference value="#1" />
            </subject>
            <recipient>
               <reference value="#3" />
            </recipient>
            <type>
               <coding>
                  <system value="urn:oid:2.16.756.5.30.1.127.3.10.1.27" />
                  <code value="60032" />
               </coding>
               <text value="An채sthesie Bericht" />
            </type>
            <author>
               <reference value="#4" />
            </author>
            <source value="urn:oid:1.3.6.1.4.1.21367.88888888" />
            <status value="current" />
            <description value="Demo Submission Set Ahdis Cda" />
            <content>
               <pReference>
                  <reference value="2.16.756.5.30.1.139.1.1.3.20151030070023307" />
               </pReference>
            </content>
         </DocumentManifest>
      </resource>
   </entry>
   <entry>
      <fullUrl value="urn:uuid:4953a6e4-2952-0726-5295-fcbd41af02a3" />
      <resource>
         <DocumentReference xmlns="http://hl7.org/fhir">
            <contained>
               <Practitioner xmlns="http://hl7.org/fhir">
                  <id value="1" />
                  <identifier>
                     <system value="urn:oid:1.3.88" />
                     <value value="7607777777777" />
                  </identifier>
                  <name>
                     <family value="Bereit" />
                     <given value="Allzeit" />
                     <prefix value="Dr. med." />
                     <suffix value="Facharzt f체r Allgemeine Medizin" />
                  </name>
               </Practitioner>
            </contained>
            <contained>
               <Patient xmlns="http://hl7.org/fhir">
                  <id value="2" />
                  <identifier>
                     <system value="urn:oid:2.16.756.5.30.999999999999" />
                     <value value="898989" />
                  </identifier>
                  <identifier>
                     <system value="urn:oid:2.16.756.5.30.1.139.1.1.3" />
                     <value value="eHC123" />
                  </identifier>
                  <identifier>
                     <system value="urn:oid:1.3.6.1.4.1.21367.2005.13.20.3000" />
                     <value value="b8a9a9ad17b5429" />
                  </identifier>
                  <identifier>
                     <system value="urn:oid:2.16.756.5.30.1.139.1.1.3" />
                     <value value="eHC123" />
                  </identifier>
                  <identifier>
                     <system value="urn:oid:2.16.756.5.37" />
                     <value value="123.73.423.124" />
                  </identifier>
                  <name>
                     <family value="Tigrinja" />
                     <given value="Sesuna" />
                  </name>
                  <telecom>
                     <system value="phone" />
                     <value value="tel:+41.32.685.12.34" />
                     <use value="home" />
                  </telecom>
                  <telecom>
                     <system value="phone" />
                     <value value="tel:+41.32.123.77.88" />
                     <use value="work" />
                  </telecom>
                  <gender value="female" />
                  <birthDate value="2000-04-04" />
                  <address>
                     <use value="home" />
                     <line value="Leidensweg 10" />
                     <city value="Specimendorf" />
                     <postalCode value="9876" />
                     <country value="CHE" />
                  </address>
                  <managingOrganization>
                     <reference value="#3" />
                  </managingOrganization>
               </Patient>
            </contained>
            <contained>
               <Organization xmlns="http://hl7.org/fhir">
                  <id value="3" />
                  <identifier>
                     <system value="urn:oid:1.3.88" />
                     <value value="7609999999999" />
                  </identifier>
                  <name value="Gruppenpraxis CH" />
                  <telecom>
                     <system value="phone" />
                     <value value="tel:+41.32.234.55.66" />
                     <use value="work" />
                  </telecom>
                  <telecom>
                     <system value="fax" />
                     <value value="fax:+41.32.234.66.77" />
                     <use value="work" />
                  </telecom>
                  <telecom>
                     <system value="email" />
                     <value value="mailto:bereit@gruppenpraxis.ch" />
                     <use value="work" />
                  </telecom>
                  <telecom>
                     <system value="other" />
                     <value value="http://www.gruppenpraxis.ch" />
                     <use value="work" />
                  </telecom>
                  <address>
                     <use value="work" />
                     <line value="Doktorgasse 2" />
                     <city value="Musterhausen" />
                     <postalCode value="8888" />
                     <country value="CHE" />
                  </address>
               </Organization>
            </contained>
            <extension url="urn:ehealth_connector:FhirExtension:useAsMetadataLanguage">
               <valueString value="de-CH" />
            </extension>
            <extension url="urn:ehealth_connector:FhirExtension:useAsComment">
               <valueString value="This is a comment" />
            </extension>
            <extension url="urn:ehealth_connector:FhirExtension:useAsPracticeSettingCode">
               <valueCoding>
                  <system value="urn:oid:2.16.756.5.30.1.127.3.10.1.18" />
                  <code value="10002" />
                  <display value="Allgemeinmedizin " />
               </valueCoding>
            </extension>
            <masterIdentifier>
               <system value="urn:oid:2.16.756.5.30.1.139.1.1.3" />
               <value value="2.16.756.5.30.1.139.1.1.3.20151030070023307" />
            </masterIdentifier>
            <type>
               <coding>
                  <system value="urn:oid:2.16.756.5.30.1.127.3.10.1.27" />
                  <code value="60032" />
               </coding>
               <text value="An채sthesie Bericht" />
            </type>
            <class>
               <coding>
                  <system value="urn:oid:2.16.756.5.30.1.127.3.10.1.3" />
                  <code value="DTC06" />
               </coding>
               <text value="Episode Summary Reports" />
            </class>
            <author>
               <reference value="#1" />
            </author>
            <authenticator>
               <reference value="#1" />
            </authenticator>
            <created value="2014-06-04" />
            <indexed value="2014-06-04T00:00:00.000+02:00" />
            <status value="current" />
            <description value="eVACDOC" />
            <securityLabel>
               <coding>
                  <system value="urn:oid:2.16.756.5.30.1.127.3.10.1.5" />
                  <code value="30001" />
               </coding>
               <text value="administrative Daten" />
            </securityLabel>
            <content>
               <attachment>
                  <language value="de-CH" />
                  <url value="demoDocSource/CDA-CH-VACD_Impfausweis.xml" />
               </attachment>
               <format>
                  <extension url="urn:ehealth_connector:FhirExtension:useAsMimeType">
                     <valueString value="dummy" />
                  </extension>
                  <system value="urn:oid:dummy" />
                  <code value="text/xml" />
               </format>
               <format>
                  <extension url="urn:ehealth_connector:FhirExtension:useAsDocumentDescriptor">
                     <valueString value="dummy" />
                  </extension>
                  <system value="urn:oid:dummy" />
                  <code value="CDA-R2!text/xml" />
               </format>
               <format>
                  <extension url="urn:ehealth_connector:FhirExtension:useAsFormatCode">
                     <valueString value="dummy" />
                  </extension>
                  <system value="urn:oid:2.16.756.5.30.1.127.3.10.1.9" />
                  <code value="urn:epd:2015:EPD_Immunization Content" />
                  <display value="eImpfdossier" />
               </format>
            </content>
            <context>
               <period>
                  <start value="2014-06-01" />
                  <end value="2014-06-04" />
               </period>
               <facilityType>
                  <coding>
                     <system value="urn:oid:2.16.756.5.30.1.127.3.10.1.11" />
                     <code value="20010" />
                  </coding>
                  <text value="Ambulante Einrichtung, inkl. Ambulatorium" />
               </facilityType>
               <sourcePatientInfo>
                  <reference value="#2" />
               </sourcePatientInfo>
            </context>
         </DocumentReference>
      </resource>
   </entry>
</Bundle>