<DocumentManifest xmlns="http://hl7.org/fhir">
   <contained>
      <MessageHeader xmlns="http://hl7.org/fhir">
         <id value="1"/>
         <extension url="urn:ehealth_connector:FhirExtension:useAsRepositoryDestination">
            <valueString value="dummy"/>
         </extension>
         <event>
            <system value="urn:oid:2.999"/>
            <code value="dummy"/>
            <display value="dummy code to make FHIR resource valid"/>
         </event>
         <destination>
            <name value="1.3.6.1.4.1.21367.13.20.1000"/>
            <endpoint value="http://hit-dev.nist.gov:12090/xdstools/sim/default__rg/rep/prb"/>
         </destination>
         <timestamp value="2015-10-30T07:00:23.307+01:00"/>
         <source>
            <name value="2.16.756.5.30.1.139.1.1.3"/>
            <software value="1.3.6.1.4.1.21367.101"/>
            <endpoint value="http://localhost"/>
         </source>
      </MessageHeader>
   </contained>
   <contained>
      <DocumentManifest xmlns="http://hl7.org/fhir">
         <id value="2"/>
         <extension url="urn:ehealth_connector:FhirExtension:useAsComment">
            <valueString value="This is sample pdf"/>
         </extension>
         <status value="current"/>
         <type>
            <coding>
               <system value="urn:oid:2.16.840.1.113883.6.96"/>
               <code value="22232009"/>
            </coding>
            <text value="Hospital"/>
         </type>
         <subject>
            <reference value="#3"/>
         </subject>
         <author>
            <reference value="#4"/>
         </author>
         <recipient>
            <reference value="#5"/>
         </recipient>
         <source value="urn:oid:1.3.6.1.4.1.21367.77777777"/>
         <description value="Demo Submission Set NIST Pdf"/>
         <content>
            <pReference>
               <reference value="2.16.756.5.30.1.139.1.1.3.20180721084120714"/>
            </pReference>
         </content>
      </DocumentManifest>
   </contained>
   <contained>
      <Patient xmlns="http://hl7.org/fhir">
         <id value="3"/>
         <identifier>
            <system value="urn:oid:2.16.756.5.30.1.100.3.1.1"/>
            <value value="8.79462.08.1"/>
         </identifier>
         <identifier>
            <system value="urn:oid:2.16.756.5.31"/>
            <value value="123.73.423.123"/>
         </identifier>
         <identifier>
            <system value="urn:oid:2.16.756.5.30.1.139.1.1.3"/>
            <value value="eHC123"/>
         </identifier>
         <identifier>
            <system value="urn:oid:1.3.6.1.4.1.21367.13.20.1000"/>
            <value value="P0710162247.3"/>
         </identifier>
         <name>
            <family value="Muster"/>
            <given value="Max"/>
         </name>
         <telecom>
            <system value="phone"/>
            <value value="tel:+41.32.685.12.34"/>
            <use value="home"/>
         </telecom>
         <telecom>
            <system value="phone"/>
            <value value="tel:+41.32.123.77.88"/>
            <use value="work"/>
         </telecom>
         <gender value="male"/>
         <birthDate value="1948-06-11"/>
         <address>
            <use value="home"/>
            <line value="Leidensweg 10"/>
            <city value="Specimendorf"/>
            <postalCode value="9876"/>
            <country value="CHE"/>
         </address>
      </Patient>
   </contained>
   <contained>
      <Practitioner xmlns="http://hl7.org/fhir">
         <id value="4"/>
         <identifier>
            <system value="urn:oid:2.51.1.3"/>
            <value value="7607777777777"/>
         </identifier>
         <name>
            <family value="Bereit"/>
            <given value="Allzeit"/>
            <prefix value="Dr. med."/>
            <suffix value="Facharzt für Allgemeine Medizin"/>
         </name>
      </Practitioner>
   </contained>
   <contained>
      <Organization xmlns="http://hl7.org/fhir">
         <id value="5"/>
         <name value="Sanofi Pasteur MSD AG"/>
      </Organization>
   </contained>
   <contained>
      <DocumentReference xmlns="http://hl7.org/fhir">
         <id value="6"/>
         <extension url="urn:ehealth_connector:FhirExtension:useAsMetadataLanguage">
            <valueString value="en"/>
         </extension>
         <extension url="urn:ehealth_connector:FhirExtension:useAsComment">
            <valueString value="This is sample pdf"/>
         </extension>
         <extension url="urn:ehealth_connector:FhirExtension:useAsPracticeSettingCode">
            <valueCoding>
               <system value="urn:oid:1.3.6.1.4.1.21367.2017.3"/>
               <code value="Practice-L"/>
               <display value="Other"/>
            </valueCoding>
         </extension>
         <extension url="urn:ehealth_connector:FhirExtension:useAsFormatCode">
            <valueCoding>
               <system value="urn:oid:1.3.6.1.4.1.19376.1.2.3"/>
               <code value="urn:ihe:iti:xds:2017:mimeTypeSufficient"/>
               <display value="mimeType is sufficient to identify technical format of a document"/>
            </valueCoding>
         </extension>
         <masterIdentifier>
            <system value="urn:oid:2.16.756.5.30.1.139.1.1.3"/>
            <value value="2.16.756.5.30.1.139.1.1.3.20180721084120714"/>
         </masterIdentifier>
         <status value="current"/>
         <type>
            <coding>
               <system value="urn:oid:2.16.840.1.113883.6.1"/>
               <code value="11488-4"/>
            </coding>
            <text value="Consultation Note"/>
         </type>
         <class>
            <coding>
               <system value="urn:oid:1.3.6.1.4.1.19376.1.2.6.1"/>
               <code value="REPORTS"/>
            </coding>
            <text value="Reports"/>
         </class>
         <created value="2013-04-23T00:00:00+02:00"/>
         <indexed value="2013-04-23T00:00:00.000+02:00"/>
         <author>
            <reference value="#4"/>
         </author>
         <authenticator>
            <reference value="#4"/>
         </authenticator>
         <description value="Patientenverfügung"/>
         <securityLabel>
            <coding>
               <system value="urn:oid:2.16.840.1.113883.5.25"/>
               <code value="N"/>
            </coding>
            <text value="normal"/>
         </securityLabel>
         <content>
            <attachment>
               <language value="de-CH"/>
               <url value="demoDocSource/patientconsent.pdf"/>
            </attachment>
            <format>
               <extension url="urn:ehealth_connector:FhirExtension:useAsMimeType">
                  <valueString value="dummy"/>
               </extension>
               <system value="urn:oid:dummy"/>
               <code value="application/pdf"/>
            </format>
         </content>
         <context>
            <period>
               <start value="2013-04-23T00:00:00+02:00"/>
            </period>
            <facilityType>
               <coding>
                  <system value="urn:oid:2.16.840.1.113883.6.96"/>
                  <code value="225728007"/>
               </coding>
               <text value="Accident and Emergency department"/>
            </facilityType>
            <sourcePatientInfo>
               <reference value="#3"/>
            </sourcePatientInfo>
         </context>
      </DocumentReference>
   </contained>
   <status value="current"/>
   <content>
      <pReference>
         <reference value="#1"/>
      </pReference>
   </content>
   <content>
      <pReference>
         <reference value="#2"/>
      </pReference>
   </content>
   <content>
      <pReference>
         <reference value="#6"/>
      </pReference>
   </content>
</DocumentManifest>